File: per_cycle_summary_allcells.csv
cycleNumber,n_rows,duration_s,max_voltage,min_voltage,mean_voltage,max_temp,mean_temp,max_current,mean_current,std_current,max_power,mean_power,QDischarge_mAh,QCharge_mAh,energy_Wh,Ns_mode,cell_id,is_capacity_test,score,dis_dur_s,frac_flight,anomaly_score,any_anomaly,initial_capacity_mAh,SOH_pct,SOH_pct_smoothed,RUL_cycles,RUL_censored,cell
0,91196,6.07721e+06,4.20013,2.49999,3.67009,61.1571,23.7625,2992.85,-651.932,1241.11,12.5567,-2.34953,3089.34,3027.44,13048.8,5,VAH01,True,3,86485.2,0.422003,1,True,3089.34,100.0,100.0,249,True,VAH01
29,4414,5.68887e+06,4.20005,2.62763,3.72384,64.0985,31.8013,2991.665,-3017.5,4861,12.5605,-10.5843,1867.38,1863.87,17311.1,5,VAH01,False,1,4039.99,0.491618,1,True,3089.34,93.643,93.643,220,True,VAH01
58,4349,5.75892e+06,4.20005,2.5747,3.72183,65.4981,31.5949,2992.06,-3073.74,4905.78,12.5605,-10.7415,1882.03,1855.16,17550.3,5,VAH01,False,1,4039.99,0.498965,1,True,3089.34,93.643,93.643,191,True,VAH01
87,2390,3.69904e+06,4.19997,2.77988,3.76161,56.8319,30.7825,2993.04,-2973.73,4918.92,12.5579,-10.4352,1819.39,1825.49,11293.1,5,VAH01,False,1,3029.99,0.496653,1,True,3089.34,93.643,93.643,162,True,VAH01
116,2431,3.74905e+06,4.20013,2.74435,3.75801,57.4566,30.8232,2991.86,-2931.42,4911.24,12.5524,-10.2556,1834.92,1823.12,11435,5,VAH01,False,1,3029.99,0.488276,1,True,3089.34,93.643,93.643,133,True,VAH01
145,2585,3.79778e+06,4.20001,2.73191,3.74436,58.864,31.8122,2991.665,-2760.37,4821.87,12.5578,-9.64628,1835.99,1824.53,11567,5,VAH01,False,1,3029.99,0.459188,1,True,3089.34,93.643,93.643,104,True,VAH01
174,2473,3.84409e+06,4.20005,2.70277,3.7404,59.90778,31.5273,2991.074,-2898.54,4926.08,12.5556,-10.0789,1847.24,1837.86,11692.5,5,VAH01,False,1,3029.99,0.479984,1,True,3089.34,93.643,93.643,75,True,VAH01
203,2533,3.88847e+06,4.200089,2.72565,3.74395,59.2357,31.6456,2992.06,-2831.59,4883.06,12.5584,-9.84343,1846.22,1830.86,11868.1,5,VAH01,False,1,3029.99,0.468614,1,True,3089.34,93.643,93.643,46,True,VAH01
232,2498,3.94109e+06,4.20001,2.67347,3.73377,62.019,31.7507,2990.877,-2889.62,4954.37,12.552,-9.97917,1855.57,1826.21,11988.3,5,VAH01,False,1,3029.99,0.47518,1,True,3089.34,93.643,93.643,17,True,VAH01
11,4610,3.91031e+06,4.19994,2.648005,3.67693,61.5441,31.4757,2992.61,-3180.06,4666.07,12.5622,-11.1927,2100.07,2090.67,11653.3,5,VAH02,False,1,3629.99,0.539696,1,True,3104.82,92.988,92.988,238,True,VAH02
40,4675,3.97398e+06,4.19994,2.633316,3.66511,62.99,31.7193,2993.01,-3149.92,4689.23,12.5585,-11.0312,2100.58,2091.18,11828.3,5,VAH02,False,1,3629.99,0.532193,1,True,3104.82,92.988,92.988,209,True,VAH02
69,2723,4.03969e+06,4.1999,2.57708,3.72525,65.1154,30.4268,2992.81,-2980.41,4753.49,12.5612,-10.4368,2119.84,2103.07,12015,5,VAH02,False,1,3629.99,0.524054,1,True,3104.82,92.988,92.988,180,True,VAH02
98,2893,4.10653e+06,4.199861,2.51608,3.71232,67.4778,31.2675,2992.81,-2811.47,4683.09,12.5627,-9.82424,2128.63,2108.79,12206.6,5,VAH02,False,1,3629.99,0.49326,1,True,3104.82,92.988,92.988,151,True,VAH02
127,2441,1.93846e+06,4.199861,2.714715,3.68937,56.0924,31.0144,2992.42,-3114.38,4708.56,12.5635,-10.9301,2070.67,2058.16,5762.8,5,VAH02,False,1,2420,0.534617,1,True,3104.82,92.988,92.988,122,True,VAH02
156,2515,1.96948e+06,4.1999,2.76272,3.6823,56.0845,31.5807,2991.83,-3024.01,4664.01,12.5577,-10.6098,2058.92,2045.89,5863.29,5,VAH02,False,1,2420,0.518887,1,True,3104.82,92.988,92.988,93,True,VAH02
185,2493,2.00569e+06,4.199861,2.71649,3.67561,58.43111,31.759,2991.63,-3069.58,4727.74,12.557,-10.7015,2069.95,2056.91,5963.73,5,VAH02,False,1,2420,0.523466,1,True,3104.82,92.988,92.988,64,True,VAH02
214,2457,2.04217e+06,4.19994,2.70432,3.67092,59.0316,31.3902,2991.83,-3128.39,4777.3,12.563,-10.8552,2079.05,2068.67,6070.64,5,VAH02,False,1,2420,0.531136,1,True,3104.82,92.988,92.988,35,True,VAH02
243,2513,2.07387e+06,4.20006,2.60555,3.66418,62.113,31.5487,2992.61,-3072.66,4793.11,12.5642,-10.6052,2105.26,2115.19,6139.38,5,VAH02,False,1,2420,0.5193,1,True,3104.82,92.988,92.988,6,True,VAH02
22,1885,1.19246e+07,4.200109,2.59558,3.94811,59.7582,28.8255,3006.21,-1345.34,4206.8,12.6182,-4.45497,1687.17,1707.84,37153.9,1,VAH05,False,2,6059.99,0.324668,1,True,3033.22,94.1449,94.1449,477,True,VAH05
51,1521,7.39475e+06,4.20015,2.967411,3.95527,47.2958,28.5274,3005.62,-1373.12,4189.94,12.6211,-4.63389,1604.63,1628.81,23217.5,1,VAH05,False,2,5049.99,0.335306,1,True,3033.22,94.1449,94.1449,448,True,VAH05
80,1535,7.46831e+06,4.20015,2.92341,3.95079,48.59021,28.802,3006.8,-1364.73,4190.77,12.6275,-4.58591,1612.38,1635.6,23403.4,1,VAH05,False,2,5049.99,0.332248,1,True,3033.22,94.1449,94.1449,419,True,VAH05
109,1546,7.54313e+06,4.20019,2.92617,3.95157,48.69281,28.7274,3007.98,-1357.54,4182.9,12.6286,-4.55244,1613.56,1644.61,23625.4,1,VAH05,False,2,5049.99,0.329884,1,True,3033.22,94.1449,94.1449,390,True,VAH05
138,1557,7.61955e+06,4.20015,2.900403,3.95034,49.6952,28.6887,3007.78,-1351.73,4183.13,12.6306,-4.51649,1618.27,1641.28,23852.2,1,VAH05,False,2,5049.99,0.327553,1,True,3033.22,94.1449,94.1449,361,True,VAH05
167,1578,7.69896e+06,4.20015,2.929436,3.94822,50.366,28.9101,3006.99,-1333.51,4159.41,12.6226,-4.45132,1609.95,1632.99,24111.3,1,VAH05,False,2,5049.99,0.323194,1,True,3033.22,94.1449,94.1449,332,True,VAH05
196,1581,7.76944e+06,4.20015,2.87279,3.94989,50.5713,28.7948,3006.6,-1335.1,4176.35,12.625,-4.43337,1627.82,1657.64,24282.4,1,VAH05,False,2,5049.99,0.322581,1,True,3033.22,94.1449,94.1449,303,True,VAH05
225,1587,7.83713e+06,4.20015,2.87476,3.95065,51.1711,28.7046,3006.21,-1332.76,4173.85,12.6225,-4.41803,1627.61,1657.95,24489.9,1,VAH05,False,2,5049.99,0.321361,1,True,3033.22,94.1449,94.1449,274,True,VAH05
254,356,8574.58,4.20007,2.87858,3.94591,50.3503,28.88,3006.21,-1222.22,4115.67,12.6166,-3.8693,1630.38,1657.46,0.583393,1,VAH05,False,1,1009.94,0.286517,2,True,3033.22,94.1449,94.1449,245,True,VAH05
283,353,8497.45,4.20007,2.8473,3.93603,52.1577,29.3646,3006.4,-1239.73,4149.54,12.6242,-3.91013,1635.03,1657.53,0.582103,1,VAH05,False,1,1009.94,0.288952,2,True,3033.22,94.1449,94.1449,216,True,VAH05
312,362,8754.55,4.200109,2.85081,3.941,51.9919,29.4779,3006.6,-1207.58,4105.79,12.6167,-3.80157,1636.37,1658.79,0.58988,1,VAH05,False,1,1009.94,0.281768,2,True,3033.22,94.1449,94.1449,187,True,VAH05
341,361,8680.92,4.20019,2.8126,3.939,53.0811,29.0635,3007.39,-1210.72,4148.9,12.6269,-3.77074,1645.12,1671,0.639726,1,VAH05,False,1,1009.94,0.282548,2,True,3033.22,94.1449,94.1449,158,True,VAH05
370,367,8919.71,4.20015,2.814486,3.94002,53.5468,29.2994,3007.59,-1198.27,4114.27,12.6227,-3.73708,1645.8,1673.06,0.649312,1,VAH05,False,1,1009.94,0.277929,2,True,3033.22,94.1449,94.1449,129,True,VAH05
399,369,8936.69,4.20015,2.76379,3.93987,54.8648,28.7675,3007.39,-1193.79,4149.08,12.6262,-3.6769,1657.24,1686.06,0.699105,1,VAH05,False,1,1009.94,0.276423,2,True,3033.22,94.1449,94.1449,100,True,VAH05
428,367,8879.7,4.20007,2.75796,3.93573,55.291,29.2013,3005.22,-1204.21,4165.5,12.6125,-3.70449,1659.76,1681.8,0.679334,1,VAH05,False,1,1009.94,0.277929,2,True,3033.22,94.1449,94.1449,71,True,VAH05
457,368,8917.45,4.20007,2.77139,3.93184,55.3778,29.6373,3004.63,-1200.39,4154.32,12.6175,-3.69769,1658.53,1678.47,0.66548,1,VAH05,False,1,1009.94,0.277174,2,True,3033.22,94.1449,94.1449,42,True,VAH05
486,373,9064.93,4.20007,2.71813,3.92875,57.50095,29.8141,3005.62,-1190.77,4158.16,12.6125,-3.64341,1666.09,1698.45,0.744711,1,VAH05,False,1,1010,0.273458,2,True,3033.22,94.1449,94.1449,13,True,VAH05
15,1757,6.97893e+06,4.20066,2.7658,3.85497,58.7439,29.8285,1507.85,-1078.34,3956.25,6.32231,-3.57132,1830.29,1879.43,10562.1,0,VAH06,False,1,4039.99,0.232214,1,True,3039.96,93.8756,93.8756,234,True,VAH06
44,1782,7.03608e+06,4.2007,2.71545,3.84997,60.42321,29.8256,1507.65,-1068.12,3954.75,6.32189,-3.51574,1842.1,1848.39,10631.5,0,VAH06,False,1,4039.99,0.228956,1,True,3039.96,93.8756,93.8756,205,True,VAH06
73,1755,7.09389e+06,4.20066,2.73286,3.85139,60.6913,29.7065,1507.26,-1087.77,3993.39,6.32473,-3.56761,1839.21,1847.89,10713.1,0,VAH06,False,1,4039.99,0.232479,1,True,3039.96,93.8756,93.8756,176,True,VAH06
102,1719,7.15472e+06,4.20074,2.757839,3.85773,59.5481,29.3193,1507.45,-1112.32,4030.94,6.32933,-3.64455,1837.53,1862.55,10821.6,0,VAH06,False,1,4039.99,0.237347,1,True,3039.96,93.8756,93.8756,147,True,VAH06
131,1765,7.21457e+06,4.2007,2.68378,3.84513,63.0723,29.9092,1507.06,-1090.15,4015.1,6.3213,-3.54533,1851.82,1861.13,10869.4,0,VAH06,False,1,4039.99,0.231161,1,True,3039.96,93.8756,93.8756,118,True,VAH06
160,1792,7.27047e+06,4.20066,2.67165,3.84344,63.1354,30.0122,1507.26,-1074.54,3988.65,6.3233,-3.49125,1857.33,1866.28,10955,0,VAH06,False,1,4039.99,0.227679,1,True,3039.96,93.8756,93.8756,89,True,VAH06
189,1868,7.33664e+06,4.2007,2.67011,3.83669,64.6097,30.211,1507.85,-1030.01,3926.72,6.31893,-3.33393,1853.23,1863.59,11041.1,7,VAH06,False,1,4039.99,0.218415,1,True,3039.96,93.8756,93.8756,60,True,VAH06
218,1831,7.39365e+06,4.20066,2.51033,3.83334,68.6227,30.3533,1507.85,-1060.47,3994.56,6.32177,-3.40738,1886.29,1868,11106,7,VAH06,False,1,4039.87,0.222829,1,True,3039.96,93.8756,93.8756,31,True,VAH06
247,1354,4.80464e+06,4.20066,2.764142,3.84803,58.7439,29.9303,1507.85,-1060.23,3957.25,6.3236,-3.46076,1826.96,1838.26,7230.33,0,VAH06,False,1,3029.82,0.225997,1,True,3039.96,93.8756,93.8756,2,True,VAH06
26,280,6267.04,4.00061,2.68827,3.66248,54.2392,31.3203,3005.07,-1773.66,5161,12.0115,-5.64167,1846.58,1859.31,0.27312,5,VAH07,False,1,1010,0.364286,1,True,3033.79,94.8705,94.8705,223,True,VAH07
55,282,6344.31,4.00053,2.69607,3.67173,54.49979,31.2518,3006.05,-1761.18,5147.09,12.013,-5.59551,1847.77,1859.56,0.277298,5,VAH07,False,1,1010,0.361702,1,True,3033.79,94.8705,94.8705,194,True,VAH07
84,280,6273.73,4.00057,2.65152,3.66026,54.9814,31.1532,3005.26,-1771.23,5188.56,12.0097,-5.60313,1851.81,1863.96,0.287658,5,VAH07,False,1,1010,0.364286,1,True,3033.79,94.8705,94.8705,165,True,VAH07
113,288,6489.39,4.00053,2.66018,3.65411,55.6288,31.684,3004.48,-1723.4,5122.8,12.0106,-5.45219,1852.11,1863.06,0.283866,5,VAH07,False,1,1010,0.354167,1,True,3033.79,94.8705,94.8705,136,True,VAH07
142,287,6465.23,4.00057,2.631901,3.65149,55.8262,31.6301,3006.05,-1731.5,5140.6,12.0113,-5.46837,1854.35,1864.92,0.293143,5,VAH07,False,1,1010,0.355401,1,True,3033.79,94.8705,94.8705,107,True,VAH07
171,277,6183.63,4.00057,2.58156,3.66186,56.3394,30.4498,3004.87,-1807.39,5274.57,12.0158,-5.64856,1866.86,1877.71,0.33615,5,VAH07,False,1,1010,0.368231,1,True,3033.79,94.8705,94.8705,78,True,VAH07
200,292,6620.23,4.00061,2.59759,3.65227,56.3157,30.4934,3006.05,-1607.02,5207.46,12.0089,-4.9951,1868,2109.86,1.23697,5,VAH07,False,1,1010,0.349315,1,True,3033.79,94.8705,94.8705,49,True,VAH07
229,279,6264.51,4.000648,2.54638,3.65105,57.2948,30.911,3007.04,-1800.73,5277.09,12.0206,-5.60901,1870.6,1882.7,0.35427,5,VAH07,False,1,1010,0.365591,1,True,3033.79,94.8705,94.8705,20,True,VAH07
8,19047,5.24974e+06,4.20088,2.50004,3.70227,58.4091,21.347,3006.15,-626.288,1538.9,12.6209,-2.22756,2703.32,1862.49,14782.5,5,VAH09,False,2,22472,0.413451,1,True,2939.75,93.0215,93.0215,241,True,VAH09
37,1823,5.33703e+06,4.200841,2.68291,3.92085,58.5511,26.8791,3005.76,-1564.78,4787.22,12.6208,-5.11983,1849.14,1862.55,16356.2,1,VAH09,False,2,6059.99,0.33571,1,True,2939.75,93.0215,93.0215,212,True,VAH09
66,1592,5.3729e+06,4.2008,2.62006,3.91304,60.6728,26.906,3006.15,-1428.38,4771.57,12.6195,-4.60154,1858.93,2746.55,15938.2,1,VAH09,False,1,5049.99,0.320352,1,True,2939.75,93.0215,93.0215,183,True,VAH09
95,1282,4.22604e+06,4.200841,2.60887,3.91332,61.14603,27.1559,3005.16,-1511.36,4780.98,12.6182,-4.82198,1864.22,1878.86,12885.4,1,VAH09,False,1,4039.99,0.318253,1,True,2939.75,93.0215,93.0215,154,True,VAH09
124,992,3.48484e+06,4.20076,2.53775,3.90957,63.1731,27.3627,3005.36,-1478.62,4785.17,12.6196,-4.63977,1874.66,1890.94,10595.2,1,VAH09,False,1,3029.99,0.308468,1,True,2939.75,93.0215,93.0215,125,True,VAH09
153,2304,3.55977e+06,4.20076,2.50004,3.75717,53.9369,22.7394,3005.56,-592.856,3091.68,12.6189,-1.87884,1820.42,1897.17,10715.3,8,VAH09,False,1,2984.96,0.130642,1,True,2939.75,93.0215,93.0215,96,True,VAH09
182,317,7367.62,4.20076,2.85077,3.91771,50.6716,27.026,3006.15,-1511.57,4762.75,12.6148,-4.86928,1794.37,1809.72,0.491502,1,VAH09,False,1,1010,0.321767,2,True,2939.75,93.0215,93.0215,67,True,VAH09
211,318,7391.64,4.20072,2.85057,3.91676,50.9555,27.0885,3005.76,-1509.06,4762.51,12.6146,-4.85101,1796.9,1810.48,0.49713,1,VAH09,False,1,1010,0.320755,2,True,2939.75,93.0215,93.0215,38,True,VAH09
240,320,7465.77,4.20068,2.82358,3.91375,51.98875,27.1863,3005.56,-1506.59,4773.19,12.6182,-4.81916,1803.03,1816.44,0.519591,1,VAH09,False,1,1010,0.31875,2,True,2939.75,93.0215,93.0215,9,True,VAH09
19,1590,9.10498e+06,4.20074,2.785517,3.90535,65.4785,36.9483,3008.12,-1488.61,4645.86,12.6273,-4.93191,1838.83,1845.42,27869,1,VAH10,False,1,5049.99,0.320755,1,True,2992.6,94.7564,94.7564,388,True,VAH10
48,1600,9.19177e+06,4.20082,2.76988,3.90459,66.2588,36.9422,3008.32,-1481.77,4648.23,12.6303,-4.89132,1843.24,1849.68,28097.3,1,VAH10,False,1,5049.99,0.31875,1,True,2992.6,94.7564,94.7564,359,True,VAH10
77,1615,9.27837e+06,4.20074,2.76944,3.904,66.582,36.9997,3009.499,-1470.03,4638.53,12.6354,-4.83919,1843.68,1855.93,28371.9,1,VAH10,False,1,5049.99,0.315789,1,True,2992.6,94.7564,94.7564,330,True,VAH10
106,1621,9.36493e+06,4.20082,2.77602,3.90462,66.2746,36.9819,3009.5,-1467.5,4635.52,12.6322,-4.82273,1844.33,1856.98,28631.1,1,VAH10,False,1,5049.99,0.314621,1,True,2992.6,94.7564,94.7564,301,True,VAH10
135,1633,9.44993e+06,4.20074,2.75195,3.9017,67.44902,37.0188,3009.5,-1462.13,4637.12,12.6346,-4.78708,1850.4,1863.59,28848.3,1,VAH10,False,1,5049.99,0.312309,1,True,2992.6,94.7564,94.7564,272,True,VAH10
164,1645,9.53341e+06,4.20078,2.75152,3.90167,67.5909,37.0822,3009.696,-1452.82,4629.58,12.6405,-4.74538,1853,1865.66,29098.8,1,VAH10,False,1,5049.99,0.31003,1,True,2992.6,94.7564,94.7564,243,True,VAH10
193,1657,9.61491e+06,4.2007,2.733355,3.89984,68.6077,37.1281,3007.92,-1446.22,4628.59,12.6296,-4.70847,1857.74,1869.35,29325.4,1,VAH10,False,1,5049.99,0.307785,1,True,2992.6,94.7564,94.7564,214,True,VAH10
222,1335,9.69375e+06,4.20086,2.73178,3.89876,68.6865,37.1552,3007.73,-1439.04,4626.5,12.6278,-4.67109,1860.14,1870.07,29540.9,1,VAH10,False,1,4039.93,0.305618,1,True,2992.6,94.7564,94.7564,185,True,VAH10
251,1051,7.95561e+06,4.2007,2.75711,3.89566,67.8195,37.3795,3007.13,-1382.59,4582.89,12.6213,-4.41414,1855.91,1862.22,24246.7,1,VAH10,False,1,3029.88,0.291151,1,True,2992.6,94.7564,94.7564,156,True,VAH10
280,352,8431.32,4.20063,2.83201,3.89438,62.3178,37.3114,3004.97,-1380.15,4607.22,12.6188,-4.37499,1817.25,1822.84,0.514432,1,VAH10,False,1,1009.94,0.289773,2,True,2992.6,94.7564,94.7564,127,True,VAH10
309,353,8474.88,4.20063,2.83472,3.89451,62.4439,37.3215,3005.56,-1385.09,4599.13,12.6198,-4.39337,1818.64,1824.04,0.520569,1,VAH10,False,1,1009.94,0.288952,2,True,2992.6,94.7564,94.7564,98,True,VAH10
338,359,8639.56,4.20047,2.8207,3.89094,62.9799,37.4524,3006.543,-1355.83,4579,12.6206,-4.28328,1820.78,1827.71,0.535488,1,VAH10,False,1,1009.94,0.284123,2,True,2992.6,94.7564,94.7564,69,True,VAH10
367,360,8665.04,4.20082,2.81711,3.89405,63.23214,37.4154,3008.91,-1352.2,4583.31,12.6334,-4.2572,1823.7,1835.59,0.57037,1,VAH10,False,1,1009.94,0.283333,2,True,2992.6,94.7564,94.7564,40,True,VAH10
396,365,8810.65,4.2007,2.8062,3.89177,63.8863,37.5018,3009.696,-1335.3,4563.21,12.6341,-4.19574,1825.77,1838.98,0.58428,1,VAH10,False,1,1009.94,0.279452,2,True,2992.6,94.7564,94.7564,11,True,VAH10
17,2369,1.38195e+07,4.20051,2.90913,3.97919,40.8904,25.8036,3006.91,-1254.63,3775.26,12.6224,-4.23649,1453.41,1466.57,43852.8,1,VAH11,False,1,8079.98,0.344449,1,True,3049.51,94.9225,94.9225,482,True,VAH11
46,2382,1.39065e+07,4.20058,2.890419,3.97843,41.3637,25.8017,3007.31,-1248.74,3773.75,12.623,-4.20679,1456.7,1468.57,44092.2,1,VAH11,False,1,8079.98,0.342569,1,True,3049.51,94.9225,94.9225,453,True,VAH11
75,1764,1.39929e+07,4.20055,2.83885,3.97995,41.3479,25.5546,3007.11,-1262.54,3783.73,12.6272,-4.27035,1469.87,1480.8,44346.4,1,VAH11,False,1,6059.99,0.346939,1,True,3049.51,94.9225,94.9225,424,True,VAH11
104,1774,1.40789e+07,4.20066,2.84441,3.97997,41.2769,25.5843,3007.51,-1255.45,3775.44,12.6285,-4.24391,1471.42,1488.88,44614,1,VAH11,False,1,6059.99,0.344983,1,True,3049.51,94.9225,94.9225,395,True,VAH11
133,1785,1.41628e+07,4.20051,2.76136,3.9783,42.681,25.5035,3007.11,-1251.53,3782.69,12.6256,-4.20996,1483.87,1497.43,44812,1,VAH11,False,1,6059.99,0.342857,1,True,3049.51,94.9225,94.9225,366,True,VAH11
162,1796,1.42439e+07,4.20055,2.79768,3.97819,42.75198,25.7679,3008.29,-1244.39,3768.8,12.6239,-4.1883,1476.76,1490.62,45117.9,1,VAH11,False,1,6059.99,0.340757,1,True,3049.51,94.9225,94.9225,337,True,VAH11
191,1797,1.4327e+07,4.20058,2.73426,3.97734,43.809,25.7451,3007.31,-1243.31,3780.82,12.6281,-4.16941,1486.5,1497.44,45357.8,1,VAH11,False,1,6059.99,0.340568,1,True,3049.51,94.9225,94.9225,308,True,VAH11
220,1810,1.44085e+07,4.20051,2.78697,3.9766,43.6039,26.1541,3007.9,-1234.03,3761.51,12.6254,-4.1453,1477.42,1490.05,45661,1,VAH11,False,1,6059.99,0.338122,1,True,3049.51,94.9225,94.9225,279,True,VAH11
249,1815,1.449e+07,4.200624,2.776567,3.9772,44.369,25.7052,3007.31,-1235.65,3769.5,12.622,-4.13341,1476.62,1495.52,45867.9,1,VAH11,False,1,6059.93,0.33719,1,True,3049.51,94.9225,94.9225,250,True,VAH11
278,999,8.94005e+06,4.20051,2.7263,3.9692,44.9448,25.3518,3006.126,-1152.3,3745.49,12.6256,-3.68355,1485.98,1500.38,28099.2,1,VAH11,False,1,3029.82,0.306306,1,True,3049.51,94.9225,94.9225,221,True,VAH11
307,1003,8.97304e+06,4.20055,2.65748,3.96805,45.3077,24.7924,3005.73,-1153.35,3759.11,12.6192,-3.66447,1498.77,1516.31,28179.6,1,VAH11,False,1,3029.82,0.305085,1,True,3049.51,94.9225,94.9225,192,True,VAH11
336,1011,9.0058e+06,4.20055,2.61158,3.9673,47.2402,25.3814,3006.717,-1145.09,3753.82,12.6194,-3.63099,1500.92,1518.2,28264.9,1,VAH11,False,1,3029.82,0.302671,1,True,3049.51,94.9225,94.9225,163,True,VAH11
365,653,4.12342e+06,4.20058,2.98237,3.97521,39.5653,25.9958,3005.34,-1159.84,3700.38,12.6155,-3.79423,1434.39,1452.59,13025.2,1,VAH11,False,1,2019.88,0.312404,1,True,3049.51,94.9225,94.9225,134,True,VAH11
394,655,4.14061e+06,4.20051,2.95759,3.97408,39.7782,25.5865,3005.34,-1156.05,3712.24,12.6174,-3.76181,1439.38,1455.26,13050,1,VAH11,False,1,2019.88,0.31145,1,True,3049.51,94.9225,94.9225,105,True,VAH11
423,658,4.15666e+06,4.20058,2.940963,3.97445,39.5653,25.2201,3005.93,-1154.17,3717.52,12.6205,-3.73991,1445.69,1464.92,13085.1,1,VAH11,False,1,2019.88,0.31003,1,True,3049.51,94.9225,94.9225,76,True,VAH11
452,658,4.17276e+06,4.20047,2.97189,3.97595,39.2971,25.2838,3004.16,-1156.13,3706.64,12.6131,-3.75691,1439.93,1455.52,13167.2,1,VAH11,False,1,2019.88,0.31003,1,True,3049.51,94.9225,94.9225,47,True,VAH11
481,661,4.18872e+06,4.20043,2.92272,3.97348,39.8966,25.2907,3005.14,-1153.01,3722.21,12.6128,-3.72239,1450.56,1462.57,13172.7,1,VAH11,False,1,2019.88,0.308623,1,True,3049.51,94.9225,94.9225,18,True,VAH11
10,1715,1.2122e+07,4.20083,2.98157,3.98864,54.6243,29.5722,3006.01,-1433.2,4868.14,12.6193,-4.72896,1318.77,1347.05,39022.5,1,VAH12,False,1,4269.99,0.253061,1,True,3060.8,94.6814,94.6814,489,True,VAH12
39,1730,1.21801e+07,4.20083,2.95675,3.98964,54.8451,29.4047,3005.22,-1425.3,4861.14,12.6202,-4.68796,1326.62,1337.01,39207.3,1,VAH12,False,1,4269.99,0.250867,1,True,3060.8,94.6814,94.6814,460,True,VAH12
68,1485,1.22342e+07,4.20083,2.96077,3.99212,54.9397,28.9824,3005.42,-1426.11,4875.14,12.6205,-4.66926,1325.56,1333.35,39386.5,1,VAH12,False,1,3659.99,0.250505,1,True,3060.8,94.6814,94.6814,431,True,VAH12
97,1495,1.22916e+07,4.20087,2.93177,3.99286,55.4129,28.7388,3005.22,-1423.26,4874.94,12.6209,-4.64277,1334.93,1338.76,39558.4,1,VAH12,False,1,3659.99,0.248829,1,True,3060.8,94.6814,94.6814,402,True,VAH12
126,1496,1.23428e+07,4.20083,2.9285,3.99021,55.4129,29.0542,3005.61,-1421.99,4876.28,12.6184,-4.63581,1336.23,1338.84,39722.7,1,VAH12,False,1,3659.99,0.248663,1,True,3060.8,94.6814,94.6814,373,True,VAH12
155,1519,1.23901e+07,4.20079,2.94367,3.99274,55.5075,28.951,3005.42,-1399.6,4844.71,12.6159,-4.55781,1333.18,1347.59,39858.7,1,VAH12,False,1,3659.99,0.244898,1,True,3060.8,94.6814,94.6814,344,True,VAH12
184,1501,1.24444e+07,4.20095,2.93154,3.98926,55.6179,29.0403,3005.81,-1420.48,4879.43,12.6172,-4.61573,1333.94,1339.06,40043.7,1,VAH12,False,1,3659.99,0.247835,1,True,3060.8,94.6814,94.6814,315,True,VAH12
213,1489,1.24956e+07,4.20079,2.92791,3.98403,55.8308,29.2715,3005.42,-1434.35,4904.72,12.6176,-4.65346,1335.65,1341.38,40188.5,1,VAH12,False,1,3659.99,0.249832,1,True,3060.8,94.6814,94.6814,286,True,VAH12
242,1536,1.25467e+07,4.20083,2.91838,3.99157,56.3355,28.9884,3005.22,-1390.47,4841.73,12.6182,-4.50108,1337.74,1346.28,40357.8,1,VAH12,False,1,3659.99,0.2421875,1,True,3060.8,94.6814,94.6814,257,True,VAH12
271,826,7.32769e+06,4.20079,2.88257,3.98866,56.785,28.3537,3004.43,-1332.93,4838.5,12.6126,-4.13323,1352.44,1353.74,23496.5,1,VAH12,False,1,1829.99,0.225182,1,True,3060.8,94.6814,94.6814,228,True,VAH12
300,988,7.34737e+06,4.20079,2.91101,3.96979,55.886,27.7857,3005.02,-723.944,4632.27,12.6169,-2.00056,1347.2,2454.47,20075.4,1,VAH12,False,1,1829.82,0.188259,1,True,3060.8,94.6814,94.6814,199,True,VAH12
329,834,7.36442e+06,4.20075,2.84432,3.98902,57.8022,27.9544,3005.22,-1319.48,4846.18,12.6164,-4.05806,1361.39,1366.51,23571.1,1,VAH12,False,1,1829.82,0.223022,1,True,3060.8,94.6814,94.6814,170,True,VAH12
358,809,7.38375e+06,4.20071,2.84944,3.97899,57.9757,28.7152,3005.22,-1362.8,4908.01,12.612,-4.20318,1359.31,1343.96,23621.6,1,VAH12,False,1,1829.82,0.229913,1,True,3060.8,94.6814,94.6814,141,True,VAH12
387,830,7.40216e+06,4.20087,2.85153,3.98371,58.1177,28.5365,3004.63,-1326.93,4853.52,12.6186,-4.08569,1357.75,1367.57,23694.7,1,VAH12,False,1,1829.82,0.224096,1,True,3060.8,94.6814,94.6814,112,True,VAH12
416,823,7.42288e+06,4.20075,2.88277,3.98087,57.7076,28.8194,3004.63,-1339.27,4869.84,12.619,-4.12758,1348.17,1352.58,23769.1,1,VAH12,False,1,1829.82,0.226002,1,True,3060.8,94.6814,94.6814,83,True,VAH12
445,818,7.44395e+06,4.20079,2.86788,3.97867,58.3463,28.745,3005.42,-1354.3,4902.11,12.6134,-4.15663,1351.92,1358.23,23811.5,1,VAH12,False,1,1829.82,0.227384,1,True,3060.8,94.6814,94.6814,54,True,VAH12
474,841,7.46146e+06,4.20079,2.87288,3.98671,58.4567,27.939,3005.22,-1318.72,4860.39,12.6127,-4.02274,1350.76,1355.01,23860.4,1,VAH12,False,1,1829.82,0.221165,1,True,3060.8,94.6814,94.6814,25,True,VAH12
3,67271,6.98774e+06,4.20089,2.5,3.66873,50.9925,24.2735,3006.14,-571.806,740.969,12.6231,-2.07077,2905.54,1651.57,13503.4,5,VAH13,True,3,67967.9,0.43796,1,True,3045.31,95.4102,98.6587,246,True,VAH13
32,1383,5.45515e+06,4.20081,2.868494,3.95564,52.1064,29.1203,3006.33,-1490.07,4796.33,12.6215,-4.90847,1574.74,1584.99,17175.1,1,VAH13,False,1,4049.99,0.296457,1,True,3045.31,94.1502,94.1502,217,True,VAH13
61,1088,5.51617e+06,4.20081,2.86247,3.95698,52.2162,28.7468,3005.938,-1516.74,4821.7,12.6186,-5.01205,1577.35,1586.97,17342.3,1,VAH13,False,1,3239.99,0.301471,1,True,3045.31,94.1502,94.1502,188,True,VAH13
90,1099,5.57856e+06,4.20089,2.83915,3.95468,53.30666,29.0462,3005.938,-1506.08,4813.54,12.6229,-4.96124,1582.02,1589.88,17537.1,1,VAH13,False,1,3239.99,0.298453,1,True,3045.31,94.1502,94.1502,159,True,VAH13
119,1094,5.6363e+06,4.20081,2.79803,3.95051,54.4441,29.0223,3006.33,-1514.94,4847.48,12.6238,-4.96263,1594.74,1602.56,17684.7,1,VAH13,False,1,3239.99,0.299817,1,True,3045.31,94.1502,94.1502,130,True,VAH13
148,1107,5.69054e+06,4.20077,2.78775,3.9449,55.58947,29.5257,3005.938,-1499.78,4826.95,12.625,-4.90663,1593.72,1637.28,17830.5,1,VAH13,False,1,3239.99,0.296296,1,True,3045.31,94.1502,94.1502,101,True,VAH13
177,1099,5.74484e+06,4.20077,2.68777,3.94315,58.1782,29.2906,3006.14,-1523.1,4873.61,12.6226,-4.94902,1614.27,1597.08,18005.7,1,VAH13,False,1,3239.99,0.298453,1,True,3045.31,94.1502,94.1502,72,True,VAH13
206,1122,5.79896e+06,4.20077,2.6641,3.94271,58.9548,29.4768,3006.135,-1490.16,4837.68,12.6205,-4.82887,1619.8,1639.19,18153.3,1,VAH13,False,1,3239.99,0.292335,1,True,3045.31,94.1502,94.1502,43,True,VAH13
235,782,3.47247e+06,4.20085,2.96622,3.94138,47.30547,29.2479,3006.135,-1590.22,4898.03,12.6215,-5.27289,1540.79,1513.36,10947.2,1,VAH13,False,1,2429.99,0.314578,1,True,3045.31,94.1502,94.1502,14,True,VAH13
14,980,3.93553e+06,4.19994,2.671515,3.87139,59.3081,29.9415,2991.04,-1662.19,4785.55,12.5539,-5.45517,2091.3,2076.3,11725.3,5,VAH15,False,1,3629.99,0.373469,1,True,3124.82,92.7506,92.7506,235,True,VAH15
43,623,1.89831e+06,4.19994,2.74858,3.87046,53.7379,29.2927,2990.64,-1735.55,4840.86,12.5539,-5.75651,2057.99,2030.51,5646.07,5,VAH15,False,1,2420,0.391653,1,True,3124.82,92.7506,92.7506,206,True,VAH15
72,638,1.92071e+06,4.19994,2.76441,3.8746,53.8011,29.4204,2991.04,-1690.56,4798.17,12.5554,-5.59445,2054.73,2039.19,5716.37,5,VAH15,False,1,2420,0.382445,1,True,3124.82,92.7506,92.7506,177,True,VAH15
101,643,1.94387e+06,4.19982,2.78363,3.87922,53.0347,29.1699,2991.63,-1680,4777.59,12.5591,-5.55605,2055.89,2043.27,5791.44,5,VAH15,False,1,2420,0.379471,1,True,3124.82,92.7506,92.7506,148,True,VAH15
130,650,1.96735e+06,4.19994,2.71897,3.87233,55.729,29.2072,2991.43,-1669.6,4813.46,12.558,-5.45899,2070.32,2054.99,5845.31,5,VAH15,False,1,2420,0.375385,1,True,3124.82,92.7506,92.7506,119,True,VAH15
159,661,1.98916e+06,4.1999,2.730546,3.87127,55.8159,29.6232,2991.04,-1642.73,4777.02,12.5588,-5.36825,2070.8,2057.53,5912.19,5,VAH15,False,1,2420,0.369138,1,True,3124.82,92.7506,92.7506,90,True,VAH15
188,664,2.01094e+06,4.1999,2.69345,3.86108,57.77533,30.0599,2991.43,-1645.16,4796.12,12.5545,-5.34851,2078.8,2064.68,5969.35,5,VAH15,False,1,2420,0.36747,1,True,3124.82,92.7506,92.7506,61,True,VAH15
217,670,2.03292e+06,4.19994,2.69097,3.86399,58.1625,29.9158,2991.23,-1634.9,4792.01,12.5563,-5.29369,2083.51,2069.51,6036.68,5,VAH15,False,1,2420,0.364179,1,True,3124.82,92.7506,92.7506,32,True,VAH15
246,683,2.0549e+06,4.19994,2.64726,3.86322,59.8612,30.1112,2991.43,-1610.09,4778.23,12.5589,-5.18708,2093.77,2081.06,6095.13,5,VAH15,False,1,2420,0.357247,1,True,3124.82,92.7506,92.7506,3,True,VAH15
25,844,3.43677e+06,4.1999,2.77649,3.90837,56.4494,30.8333,4491.22,-1695.81,4992.02,18.854,-5.59268,1821.01,1801.16,16012.3,1,VAH16,False,1,3029.99,0.362559,1,True,3138.38,93.2546,93.2546,224,True,VAH16
54,536,1.63325e+06,4.1999,2.96333,3.92193,47.9193,30.3354,4490.82,-1757.69,5009.06,18.8527,-5.91433,1768.86,1754.14,7637.22,5,VAH16,False,1,2020,0.380597,1,True,3138.38,93.2546,93.2546,195,True,VAH16
83,544,1.65992e+06,4.19994,2.91521,3.91788,49.1972,30.2136,4491.41,-1742.64,5010.73,18.8546,-5.81966,1779.3,1764.01,7738.77,5,VAH16,False,1,2020,0.375,1,True,3138.38,93.2546,93.2546,166,True,VAH16
112,547,1.68439e+06,4.199862,2.90642,3.9089,50.4516,30.6981,4490.626,-1739.51,5008.38,18.8532,-5.79408,1783.99,1759.03,7848.74,5,VAH16,False,1,2020,0.372943,1,True,3138.38,93.2546,93.2546,137,True,VAH16
141,567,1.7104e+06,4.19982,2.88342,3.90691,51.6355,31.1864,4490.82,-1673.6,4951.43,18.854,-5.54909,1788.17,1773.8,7952.05,1,VAH16,False,1,2020,0.359788,1,True,3138.38,93.2546,93.2546,108,True,VAH16
170,572,1.73733e+06,4.20006,2.86779,3.90952,52.0275,30.9852,4490.23,-1672.85,4946.71,18.8568,-5.52405,1794.62,1779.92,8069.52,1,VAH16,False,1,2020,0.356643,1,True,3138.38,93.2546,93.2546,79,True,VAH16
199,577,1.76308e+06,4.19994,2.83325,3.90922,53.4936,31.2171,4490.82,-1657.79,4958.91,18.8519,-5.43709,1802.81,1796.75,8173.47,1,VAH16,False,1,2020,0.353553,1,True,3138.38,93.2546,93.2546,50,True,VAH16
228,591,1.78681e+06,4.199862,2.80906,3.90477,54.5207,31.2259,4490.82,-1625.51,4926.76,18.8529,-5.30443,1811.56,1794.75,8274,1,VAH16,False,1,2020,0.345178,1,True,3138.38,93.2546,93.2546,21,True,VAH16
7,15742,6.73828e+06,4.20005,2.50007,3.67757,51.2653,24.7385,2989.89,-640.611,1172.06,12.5514,-2.31051,2468.1,1827.34,15574.2,5,VAH17,False,2,17639.8,0.480816,1,True,3111.98,93.534,93.534,473,True,VAH17
36,866,3.57282e+06,4.199892,2.85777,3.91031,52.3881,29.9264,2991.66,-1647.54,4831.57,12.5547,-5.48948,1796.3,1785.68,10932.4,5,VAH17,False,1,3029.99,0.353349,1,True,3111.98,93.534,93.534,444,True,VAH17
65,871,3.60948e+06,4.199892,2.84651,3.91355,52.6807,29.5088,2989.89,-1643.19,4838.48,12.5531,-5.44895,1802.67,1794.87,11034.2,5,VAH17,False,1,3029.99,0.35132,1,True,3111.98,93.534,93.534,415,True,VAH17
94,878,3.64709e+06,4.20001,2.84186,3.90607,53.8035,30.1018,2990.29,-1631.54,4832.9,12.5495,-5.39713,1801.19,1798.08,11133.2,5,VAH17,False,1,3029.99,0.348519,1,True,3111.98,93.534,93.534,386,True,VAH17
123,889,3.68201e+06,4.19993,2.82296,3.90664,53.9775,30.113,2989.89,-1612.62,4822.36,12.5538,-5.31373,1809.76,1796.57,11229.2,1,VAH17,False,1,3029.99,0.344207,1,True,3111.98,93.534,93.534,357,True,VAH17
152,899,3.71715e+06,4.20001,2.84127,3.9132,53.4081,30.0176,2991.665,-1597.42,4787.97,12.5543,-5.26943,1809.02,1793.8,11371.1,1,VAH17,False,1,3029.99,0.340378,1,True,3111.98,93.534,93.534,328,True,VAH17
181,915,3.75446e+06,4.19997,2.8026,3.90612,55.3217,30.5076,2990.09,-1572.86,4782.45,12.5547,-5.15552,1816.79,1801.49,11434,1,VAH17,False,1,3029.99,0.334426,1,True,3111.98,93.534,93.534,299,True,VAH17
210,923,3.78686e+06,4.20005,2.7985,3.90807,55.7486,30.2321,2989.89,-1562.24,4777.3,12.5513,-5.10186,1821.02,1807.45,11526.8,1,VAH17,False,1,3029.99,0.331528,1,True,3111.98,93.534,93.534,270,True,VAH17
239,932,3.82727e+06,4.199892,2.7785,3.90837,56.7924,30.0254,2991.27,-1549.1,4782.95,12.5452,-5.02779,1824.35,1831.99,11617.1,1,VAH17,False,1,3029.99,0.328326,1,True,3111.98,93.534,93.534,241,True,VAH17
268,332,7854.85,4.19985,2.76275,3.89394,57.2668,30.7777,2989.1,-1485.38,4778.37,12.5463,-4.67253,1831.85,1830.71,0.541138,1,VAH17,False,1,1009.94,0.307229,2,True,3111.98,93.534,93.534,212,True,VAH17
297,337,7995.29,4.19993,2.74002,3.8936,58.4054,31.0854,2989.104,-1467.19,4760.87,12.5532,-4.60255,1835.44,1832.52,0.547878,1,VAH17,False,1,1009.94,0.302671,2,True,3111.98,93.534,93.534,183,True,VAH17
326,336,7952.74,4.19981,2.72403,3.894,58.9985,31.0268,2989.5,-1478.45,4788.78,12.5363,-4.61248,1842.18,1825.63,0.522271,1,VAH17,False,1,1009.94,0.303571,2,True,3111.98,93.534,93.534,154,True,VAH17
355,337,7978.39,4.199892,2.73392,3.89294,58.785,30.8641,2989.69,-1465.57,4789.33,12.5465,-4.55831,1843.56,1841.08,0.583205,1,VAH17,False,1,1009.94,0.302671,2,True,3111.98,93.534,93.534,125,True,VAH17
384,341,8115.63,4.199892,2.70379,3.88462,60.5483,31.8093,2989.89,-1462.42,4772.16,12.5481,-4.54884,1846.43,1830.47,0.540164,1,VAH17,False,1,1009.94,0.29912,2,True,3111.98,93.534,93.534,96,True,VAH17
413,323,7568.77,4.20001,2.64744,3.8661,62.1455,31.5633,2989.301,-1558.29,4949.22,12.5409,-4.78537,1862.82,1831.91,0.540511,1,VAH17,False,1,1009.94,0.315789,2,True,3111.98,93.534,93.534,67,True,VAH17
442,343,8185.17,4.19985,2.58466,3.88476,63.84552,31.1309,2988.91,-1460.64,4860.18,12.5453,-4.44131,1872.01,1882.94,0.739921,1,VAH17,False,1,1009.94,0.297376,2,True,3111.98,93.534,93.534,38,True,VAH17
471,348,8332.73,4.19985,2.58569,3.88576,64.4227,31.3357,2989.69,-1449.6,4827.89,12.5463,-4.40808,1873.84,1862.86,0.6665,1,VAH17,False,1,1009.94,0.293103,2,True,3111.98,93.534,93.534,9,True,VAH17
19,560,3.43583e+06,4.19994,2.76676,3.90543,58.7935,31.3449,4491.02,-1705.6,5026.38,18.8587,-5.60176,1826.02,1803.87,15930.9,1,VAH20,False,2,2020,0.364286,1,True,3040.79,94.2381,94.2381,480,True,VAH20
48,580,3.48167e+06,4.20002,2.70473,3.90356,61.2554,31.3582,4491.02,-1648.33,4988.27,18.8591,-5.36938,1839.07,1833.34,16093.9,1,VAH20,False,2,2020,0.351724,1,True,3040.79,94.2381,94.2381,451,True,VAH20
77,569,3.52682e+06,4.1999,2.61809,3.89689,64.4776,31.5766,4491.02,-1697.84,5074,18.8568,-5.48237,1858.07,1825.79,16290.1,1,VAH20,False,2,2020,0.358524,1,True,3040.79,94.2381,94.2381,422,True,VAH20
106,265,5833.81,4.1999,3.07739,3.91798,46.7668,31.0363,4490.43,-1763.53,4994.97,18.8461,-5.99962,1733.96,1721.71,0.107291,5,VAH20,False,1,1010,0.384906,0,False,3040.79,94.2381,94.2381,393,True,VAH20
135,273,6076.46,4.19998,3.05116,3.91079,48.1545,31.4794,4489.64,-1717.71,4946.2,18.8523,-5.82221,1738.37,1728.68,0.134066,5,VAH20,False,1,1010,0.373626,0,False,3040.79,94.2381,94.2381,364,True,VAH20
164,283,6365.63,4.19982,3.04876,3.90325,48.46809,31.8559,4490.04,-1644.94,4885.49,18.8516,-5.55626,1740.37,1737.64,0.16774,5,VAH20,False,1,1010,0.360424,0,False,3040.79,94.2381,94.2381,335,True,VAH20
193,272,6035.4,4.19982,3.00252,3.91372,48.57,31.0099,4490.23,-1742.01,5000.49,18.8549,-5.8371,1752.24,1738.16,0.171119,5,VAH20,False,1,1010,0.375,1,True,3040.79,94.2381,94.2381,306,True,VAH20
222,270,5984.49,4.199862,2.99023,3.90328,49.0326,31.1323,4490.23,-1763.6,5029.35,18.8534,-5.89077,1756.71,1736.31,0.162606,5,VAH20,False,1,1010,0.377778,1,True,3040.79,94.2381,94.2381,277,True,VAH20
251,280,6284.73,4.1999,3.017725,3.90981,48.35833,31.2464,4489.84,-1694.14,4938.67,18.8506,-5.66702,1754.49,1741.2,0.183129,5,VAH20,False,1,1010,0.364286,1,True,3040.79,94.2381,94.2381,248,True,VAH20
280,281,6296.96,4.19994,2.95502,3.90891,50.2792,31.0432,4490.43,-1687.7,4989.53,18.8549,-5.57456,1766.6,1750.95,0.221513,1,VAH20,False,1,1010,0.362989,1,True,3040.79,94.2381,94.2381,219,True,VAH20
309,286,6419.07,4.19998,2.95215,3.90949,50.1537,31.0919,4490.23,-1660.6,4960.98,18.8589,-5.46848,1770.09,1755.41,0.239952,1,VAH20,False,1,1010,0.356643,1,True,3040.79,94.2381,94.2381,190,True,VAH20
338,291,6585.67,4.1999,2.93175,3.90441,51.8394,32.0182,4490.43,-1636.05,4934.92,18.8549,-5.37552,1772.89,1758.75,0.252877,1,VAH20,False,1,1009.94,0.350515,1,True,3040.79,94.2381,94.2381,161,True,VAH20
367,290,6571.59,4.199862,2.90571,3.90063,52.5528,31.4066,4490.626,-1653.22,4976.95,18.8538,-5.38452,1783.24,1763.39,0.271652,1,VAH20,False,1,1009.94,0.351724,1,True,3040.79,94.2381,94.2381,132,True,VAH20
396,296,6737.01,4.19994,2.86948,3.90578,53.3525,31.1011,4490.82,-1627.39,4968.23,18.8526,-5.25647,1792.79,1780.77,0.342811,1,VAH20,False,1,1009.94,0.344595,1,True,3040.79,94.2381,94.2381,103,True,VAH20
425,302,6943.28,4.1999,2.86196,3.90088,54.0189,31.4679,4490.43,-1598.06,4935.37,18.855,-5.14773,1796.22,1794.66,0.395972,1,VAH20,False,1,1009.94,0.337748,1,True,3040.79,94.2381,94.2381,74,True,VAH20
454,297,6797.71,4.1999,2.85365,3.90185,54.5756,31.3656,4490.43,-1633.5,4994.09,18.8503,-5.23054,1803.47,1789.51,0.377752,1,VAH20,False,1,1009.94,0.343434,1,True,3040.79,94.2381,94.2381,45,True,VAH20
483,303,6988.91,4.19998,2.7937,3.90288,57.0217,31.1302,4490.04,-1616.41,5007.67,18.8422,-5.11282,1818.2,1808.64,0.45335,1,VAH20,False,1,1009.94,0.336634,1,True,3040.79,94.2381,94.2381,16,True,VAH20
12,658,3.9408e+06,4.19998,2.61323,3.87605,60.6355,29.2728,2991.23,-1655.39,4801.1,12.5562,-5.40241,2109.12,2093.27,11730.1,5,VAH22,False,2,2420,0.370821,1,True,3023.88,94.0129,94.0129,487,True,VAH22
41,4295,4.09561e+06,4.19994,2.50017,3.59976,50.46685,21.9344,2991.23,-235.847,1890.92,12.5572,-0.773655,1991.37,2115.63,11825.5,8,VAH22,False,2,2380.81,0.0558789,1,True,3023.88,94.0129,94.0129,458,True,VAH22
70,305,6618.75,4.19994,2.94824,3.8882,46.5953,28.9528,2991.63,-1736.49,4800.94,12.5589,-5.86929,1997.41,1986.28,0.241143,5,VAH22,False,1,1210,0.4,1,True,3023.88,94.0129,94.0129,429,True,VAH22
99,310,6758.76,4.19994,2.91508,3.88419,47.7252,29.1179,2990.64,-1714.92,4790.11,12.5506,-5.76645,2004.37,1993.17,0.272783,5,VAH22,False,1,1210,0.393548,1,True,3023.88,94.0129,94.0129,400,True,VAH22
128,313,6872.69,4.20002,2.89783,3.8802,48.2546,29.1965,2992.02,-1706.91,4790.06,12.5517,-5.71481,2010.83,1999.7,0.287036,5,VAH22,False,1,1210,0.389776,1,True,3023.88,94.0129,94.0129,371,True,VAH22
157,316,6931.9,4.199861,2.89708,3.88121,48.2862,29.0127,2990.64,-1692.56,4779.23,12.5545,-5.64893,2015.53,2010.8,0.33381,5,VAH22,False,1,1210,0.386076,1,True,3023.88,94.0129,94.0129,342,True,VAH22
186,319,7074.54,4.19994,2.84932,3.87541,49.8664,29.427,2990.447,-1688.02,4792.4,12.5498,-5.59874,2024.13,2013.52,0.335173,5,VAH22,False,1,1210,0.382445,1,True,3023.88,94.0129,94.0129,313,True,VAH22
215,322,7143.09,4.19994,2.83703,3.87592,50.2614,29.2681,2991.23,-1678.17,4792.57,12.5539,-5.53725,2031.33,2018.92,0.355849,5,VAH22,False,1,1210,0.378882,1,True,3023.88,94.0129,94.0129,284,True,VAH22
244,327,7288.25,4.19994,2.79733,3.87257,51.9444,29.337,2991.04,-1661.13,4791.08,12.5556,-5.44739,2039.72,2027.77,0.388137,5,VAH22,False,1,1210,0.373089,1,True,3023.88,94.0129,94.0129,255,True,VAH22
273,331,7427.68,4.1999,2.78332,3.87391,52.1972,28.8055,2991.04,-1646.11,4787.76,12.5579,-5.36813,2047.18,2038.73,0.429842,5,VAH22,False,1,1210,0.36858,1,True,3023.88,94.0129,94.0129,226,True,VAH22
302,317,6989.59,4.19994,2.79485,3.85871,52.0629,29.297,2991.04,-1727.16,4879.5,12.558,-5.62502,2050.04,2020.2,0.357997,5,VAH22,False,1,1209.94,0.384858,1,True,3023.88,94.0129,94.0129,197,True,VAH22
331,327,7291.54,4.19978,2.74968,3.85591,54.0934,30.0853,2991.83,-1682.52,4841.57,12.5567,-5.45628,2056.48,2028.37,0.384403,5,VAH22,False,1,1209.94,0.373089,1,True,3023.88,94.0129,94.0129,168,True,VAH22
360,341,7729.8,4.1999,2.76634,3.86619,54.2515,30.2258,2991.63,-1607.79,4748.15,12.5513,-5.21391,2055.5,2042.7,0.443543,5,VAH22,False,1,1209.94,0.357771,1,True,3023.88,94.0129,94.0129,139,True,VAH22
389,345,7850.87,4.19978,2.71334,3.86512,56.361,29.7786,2992.42,-1594.02,4781.79,12.5584,-5.10768,2070.37,2067.25,0.535917,5,VAH22,False,1,1209.94,0.353623,1,True,3023.88,94.0129,94.0129,110,True,VAH22
418,348,7910.97,4.19978,2.71641,3.86487,56.44,30.0841,2991.43,-1581.89,4765.67,12.5518,-5.06137,2072.15,2058.96,0.50462,5,VAH22,False,1,1209.94,0.350575,1,True,3023.88,94.0129,94.0129,81,True,VAH22
447,350,7982.5,4.1999,2.66797,3.86346,58.3284,29.7858,2991.04,-1585.06,4799.68,12.553,-5.02468,2085.4,2070.98,0.551294,5,VAH22,False,1,1209.94,0.348571,1,True,3023.88,94.0129,94.0129,52,True,VAH22
476,353,8080.54,4.199861,2.66667,3.86176,58.6918,30.0637,2991.43,-1575.35,4791.57,12.5578,-4.97984,2089.54,2074.67,0.565185,1,VAH22,False,1,1209.94,0.345609,1,True,3023.88,94.0129,94.0129,23,True,VAH22
5,1134,4.01301e+06,4.10082,2.706733,3.79071,55.8878,29.4046,3008.21,-1273.65,4382.95,12.3254,-4.148,1827.77,1845.65,11965.5,1,VAH23,False,1,3029.99,0.269841,1,True,2947,95.6005,96.9871,244,True,VAH23
34,1160,4.00757e+06,4.100863,2.65891,3.79999,56.4556,28.8537,3007.81,-1251.47,4365.24,12.3257,-4.0533,1834.76,1873.48,11936.3,1,VAH23,False,1,3029.99,0.263793,1,True,2947,95.6005,95.6005,215,True,VAH23
63,1096,3.99812e+06,4.10094,2.62865,3.78017,57.93824,28.8917,3008.01,-1339.44,4500.84,12.323,-4.31597,1847.47,1826.62,11923.8,1,VAH23,False,1,3029.99,0.279197,1,True,2947,95.6005,95.6005,186,True,VAH23
92,1099,3.99237e+06,4.100863,2.64591,3.7693,57.7332,29.4069,3008.01,-1333.69,4509.43,12.3256,-4.28683,1838.94,1894.7,11873.9,7,VAH23,False,1,3029.99,0.278435,1,True,2947,95.6005,95.6005,157,True,VAH23
121,1078,3.98899e+06,4.10098,2.57843,3.76611,60.2332,29.1031,3008.01,-1370.3,4573.76,12.3286,-4.3793,1860.39,1812.88,11887.1,1,VAH23,False,1,3029.99,0.283859,1,True,2947,95.6005,95.6005,128,True,VAH23
150,1165,3.98815e+06,4.1009,2.6253,3.76256,59.1212,28.6668,3007.81,-1089.23,4508.91,12.329,-3.41833,1857.49,2480.67,10654.1,1,VAH23,False,1,3029.99,0.262661,1,True,2947,95.6005,95.6005,99,True,VAH23
179,1152,3.98243e+06,4.1009,2.58347,3.78246,60.2332,29.1574,3007.62,-1270.07,4443.99,12.328,-4.05231,1861.85,1869.96,11837.1,1,VAH23,False,1,3029.99,0.265625,1,True,2947,95.6005,95.6005,70,True,VAH23
208,766,1.99233e+06,4.1009,2.72088,3.79966,54.413,28.6704,3007.22,-1265.21,4389.34,12.3238,-4.09054,1822.38,1835.27,5928.64,1,VAH23,False,1,2020,0.266319,1,True,2947,95.6005,95.6005,41,True,VAH23
237,741,1.99571e+06,4.10082,2.6894,3.76366,55.6827,29.8965,3008.01,-1320.17,4476.05,12.3261,-4.25358,1825.27,1818.78,5943.07,7,VAH23,False,1,2020,0.275304,1,True,2947,95.6005,95.6005,12,True,VAH23
16,1668,6.91611e+06,4.2007,2.60235,3.86379,63.569,28.6508,1506.66,-1149.35,4107.73,6.32053,-3.75456,1859.72,1870.87,10460.9,0,VAH24,False,1,4039.99,0.244604,1,True,2960.03,95.0818,95.0818,233,True,VAH24
45,1219,4.49346e+06,4.200624,2.78258,3.87539,55.8189,28.4305,1506.86,-1168.52,4096.3,6.32213,-3.87594,1814.57,1820.36,6822.13,0,VAH24,False,1,3029.99,0.251025,1,True,2960.03,95.0818,95.0818,204,True,VAH24
74,1218,4.53057e+06,4.20066,2.775842,3.87277,56.4259,28.3196,1506.66,-1170.7,4113.42,6.32142,-3.86676,1817.96,1840.65,6862.46,0,VAH24,False,1,3029.99,0.251232,1,True,2960.03,95.0818,95.0818,175,True,VAH24
103,1219,4.56682e+06,4.20066,2.76249,3.87466,55.8819,27.9593,1506.66,-1174.96,4121.97,6.3197,-3.86722,1828.77,1830.05,6924.94,0,VAH24,False,1,3029.99,0.251025,1,True,2960.03,95.0818,95.0818,146,True,VAH24
132,1248,4.61097e+06,4.200624,2.7539,3.86833,57.93182,28.6016,1506.27,-1147.81,4093.34,6.32059,-3.76458,1823,1828.37,6972.5,0,VAH24,False,1,3029.99,0.245192,1,True,2960.03,95.0818,95.0818,117,True,VAH24
161,1268,4.64575e+06,4.20066,2.73011,3.86202,58.3891,28.6617,1506.27,-1131.58,4078.9,6.31705,-3.69617,1833.89,1882.85,6998.21,0,VAH24,False,1,3029.99,0.241325,1,True,2960.03,95.0818,95.0818,88,True,VAH24
190,1262,4.68152e+06,4.200624,2.65065,3.85988,61.3614,28.7005,1506.47,-1146.72,4119.61,6.31669,-3.71745,1848.74,1838.85,7051.51,0,VAH24,False,1,3029.99,0.242472,1,True,2960.03,95.0818,95.0818,59,True,VAH24
219,1306,4.71788e+06,4.2007,2.65045,3.86008,61.4166,28.8331,1506.66,-1102.7,4059.55,6.31705,-3.56811,1850.84,1895.8,7088.82,0,VAH24,False,1,3029.94,0.234303,1,True,2960.03,95.0818,95.0818,30,True,VAH24
248,1302,4.7544e+06,4.20058,2.54196,3.85942,64.8462,28.744,1506.27,-1113.04,4100.83,6.31391,-3.57068,1866.42,1882.01,7129.46,0,VAH24,False,1,3029.82,0.235023,1,True,2960.03,95.0818,95.0818,1,True,VAH24
27,908,3.42696e+06,4.20076,2.72169,3.9215,55.2147,26.8904,3005.76,-1570.95,4792.4,12.619,-5.14872,1831.96,1846.78,10510.6,1,VAH25,False,1,3029.99,0.337004,1,True,2933.13,96.1453,96.1453,222,True,VAH25
56,917,3.48173e+06,4.20076,2.69682,3.92108,56.4451,26.8483,3005.76,-1557.65,4788.33,12.6214,-5.08277,1840.03,1852.74,10673.7,1,VAH25,False,1,3029.99,0.333697,1,True,2933.13,96.1453,96.1453,193,True,VAH25
85,933,3.53834e+06,4.200841,2.53259,3.91729,60.87,26.9693,3005.56,-1541.91,4803.9,12.6208,-4.9781,1862.56,1877.66,10804.6,1,VAH25,False,1,3029.99,0.327974,1,True,2933.13,96.1453,96.1453,164,True,VAH25
114,595,1.47591e+06,4.2008,2.891237,3.92514,47.8873,26.652,3005.76,-1585.46,4780.87,12.6208,-5.25006,1783.33,1796.03,4532.75,1,VAH25,False,1,2020,0.342857,1,True,2933.13,96.1453,96.1453,135,True,VAH25
143,602,1.50329e+06,4.20072,2.8553,3.92293,49.4569,26.6264,3005.36,-1575.28,4784.78,12.6155,-5.18288,1792.07,1805.88,4606.91,1,VAH25,False,1,2020,0.33887,1,True,2933.13,96.1453,96.1453,106,True,VAH25
172,611,1.53116e+06,4.2008,2.84064,3.92249,50.1668,26.7734,3005.36,-1557.06,4772.06,12.6195,-5.09846,1798.62,1812.21,4685.37,1,VAH25,False,1,2020,0.333879,1,True,2933.13,96.1453,96.1453,77,True,VAH25
201,323,7564.19,4.20068,2.851361,3.91827,50.151,27.0809,3004.97,-1492.89,4736.64,12.6179,-4.78624,1800.32,1814.28,0.517287,1,VAH25,False,1,1010,0.315789,2,True,2933.13,96.1453,96.1453,48,True,VAH25
230,329,7748.02,4.20072,2.78142,3.91593,52.7617,27.0249,3005.16,-1473.64,4764.33,12.6172,-4.65638,1816.55,1829.92,0.577293,1,VAH25,False,1,1010,0.31003,2,True,2933.13,96.1453,96.1453,19,True,VAH25
9,1636,6.91356e+06,4.20077,2.75702,3.95847,54.3108,27.3134,3005.938,-1528.4,4885.06,12.6189,-4.96546,1597.52,1628.36,21734,1,VAH26,False,1,4859.99,0.300733,1,True,3052.76,93.9952,93.9952,240,True,VAH26
38,1640,6.9711e+06,4.20073,2.67273,3.95525,57.1741,27.5796,3006.14,-1528.7,4902.18,12.6225,-4.94198,1609.56,1615.57,21902.9,1,VAH26,False,1,4859.99,0.3,1,True,3052.76,93.9952,93.9952,211,True,VAH26
67,1664,7.02643e+06,4.20077,2.73685,3.95694,56.6485,27.5964,3005.741,-1506.65,4873.71,12.623,-4.86483,1596.63,1610.3,22053.1,1,VAH26,False,1,4859.99,0.295673,1,True,3052.76,93.9952,93.9952,182,True,VAH26
96,1677,7.08125e+06,4.20077,2.61762,3.95519,59.59811,27.4671,3005.54,-1503.09,4891.66,12.6179,-4.81567,1615.18,1627.12,22201.2,1,VAH26,False,1,4859.99,0.293381,1,True,3052.76,93.9952,93.9952,153,True,VAH26
125,1386,7.13734e+06,4.20085,2.54885,3.94927,61.40239,27.785,3006.73,-1517.98,4916.28,12.6194,-4.86296,1625.77,1627.2,22358.4,1,VAH26,False,1,4049.99,0.295815,1,True,3052.76,93.9952,93.9952,124,True,VAH26
154,785,3.34593e+06,4.20081,2.98977,3.96127,46.8426,27.9455,3005.54,-1564.07,4869.84,12.6207,-5.21015,1533.51,1547.06,10552.7,1,VAH26,False,1,2429.99,0.313376,1,True,3052.76,93.9952,93.9952,95,True,VAH26
183,798,3.37672e+06,4.20085,2.97288,3.96275,48.0978,28.014,3005.54,-1538.16,4851.74,12.6204,-5.10236,1534.65,1567.06,10639.7,1,VAH26,False,1,2429.99,0.308271,1,True,3052.76,93.9952,93.9952,66,True,VAH26
212,796,3.40765e+06,4.20085,2.96181,3.95708,47.5094,28.1461,3005.54,-1551.1,4865.84,12.6224,-5.13405,1539.63,1549.95,10740.1,1,VAH26,False,1,2429.99,0.309045,1,True,3052.76,93.9952,93.9952,37,True,VAH26
241,813,3.43643e+06,4.20077,2.9427,3.95964,48.6234,28.4867,3005.54,-1520.02,4828.19,12.6186,-5.02147,1543.47,1550.91,10828.6,1,VAH26,False,1,2429.99,0.302583,1,True,3052.76,93.9952,93.9952,8,True,VAH26
20,885,3.63473e+06,4.19993,2.68568,3.91929,59.4887,29.0618,2992.06,-1627.91,4849.72,12.5532,-5.34883,1844.2,1826.25,11081.4,1,VAH27,False,1,3029.99,0.345763,1,True,3120.68,93.246,93.246,229,True,VAH27
49,880,3.68376e+06,4.19993,2.54115,3.90692,64.0985,29.4805,2990.877,-1644.7,4912.55,12.5544,-5.35084,1865.96,1832.97,11200,1,VAH27,False,1,3029.99,0.347727,1,True,3120.68,93.246,93.246,200,True,VAH27
78,573,1.7477e+06,4.199892,2.88735,3.9199,50.8383,29.4251,2989.498,-1648.81,4834.46,12.5531,-5.51207,1784.27,1773.38,5345.45,5,VAH27,False,1,2020,0.356021,1,True,3120.68,93.246,93.246,171,True,VAH27
107,583,1.77261e+06,4.20005,2.898021,3.92223,51.3365,29.4267,2989.69,-1620.58,4803.97,12.5507,-5.40318,1784.83,1776.83,5416.34,1,VAH27,False,1,2020,0.349914,1,True,3120.68,93.246,93.246,142,True,VAH27
136,588,1.79907e+06,4.199892,2.84875,3.91938,52.9021,29.3888,2990.48,-1617.66,4822.25,12.5489,-5.35228,1795.61,1783.21,5486.88,1,VAH27,False,1,2020,0.346939,1,True,3120.68,93.246,93.246,113,True,VAH27
165,596,1.82721e+06,4.199892,2.85868,3.91726,53.4319,29.8204,2989.69,-1596.52,4795.67,12.5505,-5.27634,1794.69,1787.89,5569.59,1,VAH27,False,1,2020,0.342282,1,True,3120.68,93.246,93.246,84,True,VAH27
194,604,1.85838e+06,4.20001,2.8139,3.91526,55.124,29.9586,2990.68,-1584.2,4798.11,12.5533,-5.20175,1806.1,1794.29,5650.39,1,VAH27,False,1,2020,0.337748,1,True,3120.68,93.246,93.246,55,True,VAH27
223,610,1.88966e+06,4.19985,2.78515,3.91586,56.1598,29.5067,2989.69,-1576.03,4807.83,12.5554,-5.13476,1817.49,1805.15,5735.99,1,VAH27,False,1,2020,0.334426,1,True,3120.68,93.246,93.246,26,True,VAH27
2,70454,7.72875e+06,4.20003,2.50001,3.68255,44.31242,21.2912,3005.22,-559.803,864.934,12.6192,-2.01797,2942.68,1661.2,18302.9,5,VAH28,True,3,72661.3,0.423936,1,True,3020.38,97.4277,100.0,247,True,VAH28
31,2110,7.79823e+06,4.19999,2.86251,3.9591,43.4995,25.8074,3004.83,-1404.36,4280.69,12.6159,-4.64557,1626.35,1647.71,24352.5,1,VAH28,False,1,7069.99,0.338389,1,True,3020.38,94.1512,94.1512,218,True,VAH28
60,2129,7.86626e+06,4.20003,2.911236,3.95864,44.1703,26.3429,3004.63,-1388.55,4253.31,12.6191,-4.6035,1612.75,1632.44,24581.4,1,VAH28,False,1,7069.99,0.335369,1,True,3020.38,94.1512,94.1512,189,True,VAH28
89,2141,7.93379e+06,4.20003,2.89816,3.95699,44.5334,26.329,3005.03,-1384.22,4257.87,12.6159,-4.57135,1614.07,1639.22,24766.3,1,VAH28,False,1,7069.99,0.333489,1,True,3020.38,94.1512,94.1512,160,True,VAH28
118,1509,6.72886e+06,4.20003,2.941963,3.95747,44.4782,26.5038,3004.63,-1398.77,4261.58,12.6125,-4.64696,1603.09,1625.77,21038.4,1,VAH28,False,1,5049.99,0.337972,1,True,3020.38,94.1512,94.1512,131,True,VAH28
147,1191,5.55077e+06,4.20003,2.9147,3.95994,42.6155,24.9545,3005.62,-1421.93,4300.96,12.6145,-4.70798,1609.77,1627.06,17329.2,1,VAH28,False,1,4039.99,0.342569,1,True,3020.38,94.1512,94.1512,102,True,VAH28
176,560,1.74189e+06,4.20003,3.08252,3.96042,39.7663,26.7512,3005.22,-1478.36,4310.51,12.6199,-5.0481,1562.97,1581.87,5463.65,1,VAH28,False,1,2020,0.364286,0,False,3020.38,94.1512,94.1512,73,True,VAH28
205,561,1.7593e+06,4.20003,3.07263,3.96144,38.835,26.5917,3004.44,-1477.35,4313.58,12.6139,-5.03252,1567.76,1584.13,5515.33,1,VAH28,False,1,2020,0.363636,0,False,3020.38,94.1512,94.1512,44,True,VAH28
234,571,1.77637e+06,4.19995,3.05179,3.95954,39.88467,26.9154,3003.84,-1455.1,4290.46,12.6089,-4.94408,1570.74,1589.46,5562.91,1,VAH28,False,1,2020,0.357268,1,True,3020.38,94.1512,94.1512,15,True,VAH28
13,2195,6.05857e+06,4.19994,2.87361,3.89768,64.6018,41.1517,2996.36,-1511.21,4651.38,12.5827,-5.04381,1804.42,1797.18,18421.9,1,VAH30,False,1,7069.99,0.325285,1,True,3138.3,92.5799,92.5799,236,True,VAH30
42,1871,6.13182e+06,4.19994,2.86117,3.89707,65.6922,41.1984,2995.57,-1517.07,4656.35,12.5729,-5.07341,1809.85,1804.55,18637.3,1,VAH30,False,1,6059.99,0.327098,1,True,3138.3,92.5799,92.5799,207,True,VAH30
71,1879,6.20123e+06,4.19994,2.851522,3.89455,66.20575,41.227,2995.96,-1516.02,4660.1,12.5792,-5.05295,1814.6,1807.08,18831.1,1,VAH30,False,1,6059.99,0.325705,1,True,3138.3,92.5799,92.5799,178,True,VAH30
100,1399,4.96393e+06,4.19998,2.93064,3.87524,62.5476,41.0443,2995.76,-1041.78,4589.01,12.5762,-3.40979,1803.12,2894.69,13035.7,0,VAH30,False,1,4039.99,0.291637,1,True,3138.3,92.5799,92.5799,149,True,VAH30
129,1242,5.01812e+06,4.20002,2.87834,3.88878,64.4912,41.2607,2996.552,-1531.72,4684.54,12.5851,-5.09686,1804,1793.68,15242,5,VAH30,False,1,4039.99,0.328502,1,True,3138.3,92.5799,92.5799,120,True,VAH30
158,280,6283.42,4.1999,3.1466,3.91296,53.9828,40.5603,2994.78,-1646.74,4743.58,12.5674,-5.70939,1717.65,1712.66,0.0757075,5,VAH30,False,1,1010,0.364286,1,True,3138.3,92.5799,92.5799,91,True,VAH30
187,281,6288.42,4.19994,3.12458,3.91348,54.2041,40.4931,2994.78,-1645.55,4755.42,12.5746,-5.6809,1722.47,1717.69,0.0875416,5,VAH30,False,1,1010,0.362989,1,True,3138.3,92.5799,92.5799,62,True,VAH30
216,287,6470.07,4.19998,3.113991,3.91009,54.7176,40.621,2993.99,-1613.36,4724.84,12.5706,-5.54938,1726.64,1721.8,0.102658,5,VAH30,False,1,1010,0.355401,1,True,3138.3,92.5799,92.5799,33,True,VAH30
245,290,6555.69,4.1999,3.09627,3.90947,55.2786,40.6382,2993.99,-1599.98,4718.06,12.5653,-5.48284,1730.84,1725.67,0.115973,5,VAH30,False,1,1010,0.351724,1,True,3138.3,92.5799,92.5799,4,True,VAH30
249,289,6548.29,4.19982,3.09387,3.90777,55.5156,40.6969,2994.78,-1606.41,4727.44,12.5709,-5.50229,1731.5,1727.2,0.121884,5,VAH30,False,1,1010,0.352941,1,True,3138.3,92.5799,92.5799,0,True,VAH30